<?xml version="1.0" encoding="UTF-8"?>
<!--
    Original : 8/12/2019
    FHIR version : 4.0
    eLTSS Version 1
    Test Case 4
-->
<Bundle xmlns:xsi="http://www.w3.org/2001/XMLSchema-instance" xmlns="http://hl7.org/fhir">
  <id value="careplantest4"/>
  <type value="transaction"/>
  <!--  eLTSS Service Plan / FHIR Care Plan  -->
  <entry>
    <!-- 1 -->
    <fullUrl value="http://example.org/eLTSS/careplan-t4-1"/>
    <resource>
      <CarePlan>
        <id value="careplan-t4-1"/>
        <meta>
          <profile value="http://hl7.org/fhir/us/eLTSS/StructureDefinition/CarePlan-eltss"/>
        </meta>
        <text>
          <status value="generated"/>
          <div xmlns="http://www.w3.org/1999/xhtml">
            <p>
              <b>Anne Subject's Long Term Services and Supports (LTSS) Service Plan</b>
            </p>
            <p><b>Plan Effective Date:</b> 2019-08-08 - 2020-12-31</p>
            <p><b>Step or Action:</b> client action - completing a small craft project</p>
            <p><b>Step or Action:</b> client action - build better balance skills</p>
          </div>
        </text>
        <status value="active"/>
        <intent value="plan"/>
        <category>
          <coding>
            <system value="http://hl7.org/fhir/us/core/CodeSystem/careplan-category"/>
            <code value="assess-plan"/>
          </coding>
        </category>
        <subject>
          <reference value="Patient/patient-t4"/>
        </subject>
        <!--  [eLTSS Plan Effective Date]  -->
        <period>
          <start value="2018-08-08"/>
          <end value="2020-12-31"/>
        </period>
        <author>
          <reference value="Practitioner/planner-t4"/>
        </author>
        <addresses>
          <reference value="Condition/need-t4-1"/>
        </addresses>
        <addresses>
          <reference value="Condition/need-t4-2"/>
        </addresses>
        <addresses>
          <reference value="Condition/need-t4-3"/>
        </addresses>
        <supportingInfo>
          <reference value="Observation/strength-t4"/>
        </supportingInfo>
        <supportingInfo>
          <reference value="QuestionnaireResponse/questionnaireresponse-t4"/>
        </supportingInfo>
        <supportingInfo>
          <reference value="Contract/contract-t4"/>
        </supportingInfo>
        <supportingInfo>
          <reference value="RiskAssessment/risk-t4"/>
        </supportingInfo>
        <goal>
          <reference value="Goal/goal-t4-1"/>
        </goal>
        <goal>
          <reference value="Goal/goal-t4-2"/>
        </goal>
        <activity>
          <!--  [eLTSS Step or Action]  -->
          <detail>
            <goal>
              <reference value="Goal/goal-t4-1"/>
            </goal>
            <status value="not-started"/>
            <description value="complete scrap book"/>
          </detail>
        </activity>
        <activity>
          <!--  [eLTSS Step or Action]  -->
          <detail>
            <goal>
              <reference value="Goal/goal-t4-2"/>
            </goal>
            <status value="not-started"/>
            <description value="stand on one foot for a count of 10"/>
          </detail>
        </activity>
        <activity>
          <reference>
            <reference value="ServiceRequest/service-t4-1"/>
          </reference>
        </activity>
        <activity>
          <reference>
            <reference value="ServiceRequest/service-t4-2"/>
          </reference>
        </activity>
        <activity>
          <reference>
            <reference value="ServiceRequest/service-t4-3"/>
          </reference>
        </activity>
      </CarePlan>
    </resource>
    <request>
      <method value="PUT"/>
            <url value="CarePlan/careplan-t4-1"/>
    </request>
  </entry>
  <!--  Support Planner (CarePlan author) -->
  <entry>
    <!-- 2 -->
    <fullUrl value="http://example.org/eLTSS/planner-t4-1"/>
    <resource>
      <Practitioner>
        <id value="planner-t4-1"/>
        <meta>
          <profile value="http://hl7.org/fhir/us/eLTSS/StructureDefinition/Practitioner-eltss"/>
        </meta>
        <text>
          <status value="generated"/>
          <div xmlns="http://www.w3.org/1999/xhtml">
            <p><b>Support Planner / Phone:</b> Deividas Lydeka / (706) 555 1827</p>
          </div>
        </text>
        <!-- identifier is required by US Core -->
        <identifier>
          <system value="http://fhir.hl7.org/sid/us-npi"/>
          <value value="706290301"/>
        </identifier>
        <identifier>
          <system value="http://www.example.org/practitioners"/>
          <value value="49509"/>
        </identifier>
        <!-- [eLTSS Support Planner Name] -->
        <name>
          <text value="Deividas Lydeka"/>
          <family value="Lydeka"/>
          <given value="Deividas"/>
        </name>
        <!-- [eLTSS Support Planner Phone Number] -->
        <telecom>
          <system value="phone"/>
          <value value="(706) 555 1827"/>
        </telecom>
      </Practitioner>
    </resource>
    <request>
      <method value="PUT"/>
            <url value="Practitioner/planner-t4-1"/>						
    </request>
  </entry>
  <entry>
    <!-- 3 -->
    <fullUrl value="http://example.org/eLTSS/caremgr-t4-1"/>
    <resource>
      <Practitioner>
        <id value="caremgr-t4-1"/>
        <meta>
          <profile value="http://hl7.org/fhir/us/eLTSS/StructureDefinition/Practitioner-eltss"/>
        </meta>
        <text>
          <status value="generated"/>
          <div xmlns="http://www.w3.org/1999/xhtml">
            <p><b>Plan Monitor / Phone:</b> Davide Snoek / (706) 555 2324</p>
          </div>
        </text>
        <!-- identifier is required by US Core -->
        <identifier>
          <system value="http://fhir.hl7.org/sid/us-npi"/>
          <value value="1567483295"/>
        </identifier>
        <identifier>
          <system value="http://www.acme.org/practitioners"/>
          <value value="66666"/>
        </identifier>
        <!-- [eLTSS Plan Monitor Name] -->
        <name>
          <text value="Davide Snoek"/>
          <family value="Snoek"/>
          <given value="Davide"/>
        </name>
        <!-- [eLTSS Plan Monitor Phone Number] -->
        <telecom>
          <system value="phone"/>
          <value value="(706) 555 2324"/>
        </telecom>
      </Practitioner>
    </resource>
    <request>
      <method value="PUT"/>
            <url value="Practitioner/caremgr-t4-1"/>
    </request>
  </entry>
  <!--     The person (Patient) who is the subject of the document. -->
  <entry>
    <!-- 4 -->
    <fullUrl value="http://example.org/eLTSS/patient-t4"/>
    <resource>
      <Patient>
        <id value="patient-t4"/>
        <meta>
          <profile value="http://hl7.org/fhir/us/eLTSS/StructureDefinition/Patient-eltss"/>
        </meta>
        <text>
          <status value="generated"/>
          <div xmlns="http://www.w3.org/1999/xhtml">
            <p><b>Person Name:</b> Dave Stika</p>
            <p><b>Person Identifier | Type:</b> ebb1bcfbd5 | MRN</p>
            <p><b>Person Phone:</b> (706) 555 3377</p>
            <p><b>Person Date of Birth:</b> 1944-03-12</p>
            <p><b>Person Address:</b> 3216 Peach Orchard Rd, Augusta, GA 30906</p>
            <p><b>Emergency Contact Name:</b> Adrien Garcia</p>
            <p><b>Emergency Contact Relationship:</b> son</p>
            <p><b>Emergency Contact Phone Number:</b> (706) 555 2667</p>
          </div>
        </text>
        <!-- [eLTSS Person Identifier] & [eLTSS Person Identifier Type]  -->
        <identifier>
          <type>
            <coding>
              <system value="http://terminology.hl7.org/CodeSystem/v2-0203"/>
              <code value="MR"/>
            </coding>
          </type>
          <system value="http://www.example.org/Codesystem"/>
          <value value="ebb1bcfbd5"/>
        </identifier>
        <!--  [eLTSS Person Name]  -->
        <name>
          <text value="Dave Stika"/>
          <family value="Stika"/>
          <given value="Dave"/>
        </name>
        <!--  [eLTSS Person Phone Number]  -->
        <telecom>
          <system value="phone"/>
          <value value="(706) 555 3377"/>
        </telecom>
        <gender value="male"/>
        <!--  [eLTSS Person Date of Birth]  -->
        <birthDate value="1946-08-09"/>
        <!--  [eLTSS Person Address]  -->
        <address>
          <text value="3216 Peach Orchard Rd, Augusta, GA 30906"/>
          <line value="3216 Peach Orchard Rd"/>
          <city value="Augusta"/>
          <district value="Richmond"/>
          <state value="GA"/>
          <postalCode value="30906"/>
        </address>
        <!--  [eLTSS Emergency Contact Name] & [eLTSS Emergency Contact Relationship] & [eLTSS Emergency Contact Phone Number] -->
        <contact>
          <relationship>
            <!-- code value indicates emergency contact -->
            <coding>
              <system value="http://terminology.hl7.org/fhir/v2/0131"/>
              <code value="C"/>
            </coding>
          </relationship>
          <relationship>
            <!-- code value indicates son -->
            <coding>
              <system value="http://terminology.hl7.org/fhir/v3/RoleCode"/>
              <code value="SONC"/>
            </coding>
          </relationship>
          <name>
            <text value="Dukra Figlia"/>
            <family value="Figlia"/>
            <given value="Dukra"/>
          </name>
          <telecom>
            <system value="phone"/>
            <value value="(706) 555 9568"/>
          </telecom>
        </contact>
      </Patient>
    </resource>
    <request>
      <method value="PUT"/>
            <url value="Patient/patient-t4"/>
    </request>
  </entry>
  <entry>
    <!-- 5 -->
    <fullUrl value="http://example.org/eLTSS/episode-t4-1"/>
    <resource>
      <!--  links the care plan to the plan monitor/case manager  -->
      <!--  [eLTSS Plan Monitor Name] & [eLTSS Plan Monitor Phone Number]  -->
      <EpisodeOfCare>
        <id value="episode-t4-1"/>
        <meta>
          <profile value="http://hl7.org/fhir/us/eLTSS/StructureDefinition/EpisodeOfCare-eltss"/>
        </meta>
        <status value="active"/>
        <patient>
          <reference value="Patient/patient-t4"/>
        </patient>
        <careManager>
          <reference value="Practitioner/caremgr-t4-1"/>
        </careManager>
      </EpisodeOfCare>
    </resource>
    <request>
      <method value="PUT"/>
            <url value="EpisodeOfCare/episode-t4-1"/>
    </request>
  </entry>
  <entry>
    <!-- 6 -->
    <fullUrl value="http://example.org/eLTSS/careplan-t4-2"/>
    <resource>
      <!--  [eLTSS Emergency Backup Plan]  -->
      <CarePlan>
        <id value="careplan-t4-2"/>
        <meta>
          <profile value="http://hl7.org/fhir/us/eLTSS/StructureDefinition/CarePlan-eltss"/>
        </meta>
        <text>
          <status value="generated"/>
          <div xmlns="http://www.w3.org/1999/xhtml">
            <p>
              <b>Emergency Contingency PLan</b>
            </p>
            <p><b>Plan Effective Date:</b> 2019-08-09 - 2020-08-09</p>
            <p>
              <b>24 Hour on-call trauma nurse</b>
            </p>
          </div>
        </text>
        <!-- reference to the "main" care plan -->
        <partOf>
          <reference value="CarePlan/careplan-t4-1"/>
        </partOf>
        <status value="active"/>
        <intent value="plan"/>
        <category>
          <coding>
            <system value="http://hl7.org/fhir/us/core/CodeSystem/careplan-category"/>
            <code value="assess-plan"/>
          </coding>
        </category>
        <description value="An on-call trauma nurse to assist with falls or injury"/>
        <subject>
          <reference value="Patient/patient-t4"/>
        </subject>
      </CarePlan>
    </resource>
    <request>
      <method value="PUT"/>
            <url value="CarePlan/careplan-t4-2"/>
    </request>
  </entry>
  <entry>
    <!-- 7 -->
    <fullUrl value="http://example.org/eLTSS/goal-t4-1"/>
    <resource>
      <!--  [eLTSS Goal]  -->
      <Goal>
        <id value="goal-t4-1"/>
        <meta>
          <profile value="http://hl7.org/fhir/us/eLTSS/StructureDefinition/Goal-eltss"/>
        </meta>
        <text>
          <status value="generated"/>
          <div xmlns="http://www.w3.org/1999/xhtml">
            <p><b>Person Goal:</b> completing a small craft project</p>
          </div>
        </text>
        <lifecycleStatus value="accepted"/>
        <description>
          <text value="completing a small craft project"/>
        </description>
        <subject>
          <reference value="Patient/patient-t4"/>
        </subject>
      </Goal>
    </resource>
    <request>
      <method value="PUT"/>
            <url value="Goal/goal-t4-1"/>
    </request>
  </entry>
  <entry>
    <!-- 8 -->
    <fullUrl value="http://example.org/eLTSS/goal-t4-2"/>
    <resource>
      <!--  [eLTSS Goal]  -->
      <Goal>
        <id value="goal-t4-2"/>
        <meta>
          <profile value="http://hl7.org/fhir/us/eLTSS/StructureDefinition/Goal-eltss"/>
        </meta>
        <text>
          <status value="generated"/>
          <div xmlns="http://www.w3.org/1999/xhtml">
            <p><b>Person Goal:</b>build better balance skills</p>
          </div>
        </text>
        <lifecycleStatus value="accepted"/>
        <description>
          <text value="stand on one foot for 10 seconds"/>
        </description>
        <subject>
          <reference value="Patient/patient-t4"/>
        </subject>
      </Goal>
    </resource>
    <request>
      <method value="PUT"/>
            <url value="Goal/goal-t4-2"/>
    </request>
  </entry>
  <entry>
    <!-- 9 -->
    <fullUrl value="http://example.org/eLTSS/need-t4-1"/>
    <resource>
      <!--  [eLTSS Assessed Need]  -->
      <Condition>
        <id value="need-t4-1"/>
        <meta>
          <profile value="http://hl7.org/fhir/us/eLTSS/StructureDefinition/Condition-eltss"/>
        </meta>
        <text>
          <status value="generated"/>
          <div xmlns="http://www.w3.org/1999/xhtml">
            <p><b>Assessed Need:</b> unsafe neighbourhood</p>
          </div>
        </text>
        <clinicalStatus>
          <coding>
            <system value="http://terminology.hl7.org/CodeSystem/condition-clinical"/>
            <code value="active"/>
          </coding>
        </clinicalStatus>
        <verificationStatus>
          <coding>
            <system value="http://terminology.hl7.org/CodeSystem/condition-ver-status"/>
            <code value="confirmed"/>
          </coding>
        </verificationStatus>
        <category>
          <coding>
            <system value="http://hl7.org/fhir/us/eLTSS/CodeSystem/eltss-condition-category-code"/>
            <code value="assessed-need"/>
          </coding>
        </category>
        <code>
          <coding>
            <system value="http://snomed.info/sct"/>
            <code value="343087000"/>
            <display value=" Partial deafness "/>
          </coding>
          <text value="Partial deafness"/>
        </code>
        <subject>
          <reference value="Patient/patient-t4"/>
        </subject>
      </Condition>
    </resource>
    <request>
      <method value="PUT"/>
       <url value="Condition/need-t4-1"/>
    </request>
  </entry>
  <entry>
    <!-- 10 -->
    <fullUrl value="http://example.org/eLTSS/need-t4-2"/>
    <resource>
      <!--  [eLTSS Assessed Need]  -->
      <Condition>
        <id value="need-t4-2"/>
        <meta>
          <profile value="http://hl7.org/fhir/us/eLTSS/StructureDefinition/Condition-eltss"/>
        </meta>
        <text>
          <status value="generated"/>
          <div xmlns="http://www.w3.org/1999/xhtml">
            <p><b>Assessed Need:</b> unsatisfactory community support services</p>
          </div>
        </text>
        <clinicalStatus>
          <coding>
            <system value="http://terminology.hl7.org/CodeSystem/condition-clinical"/>
            <code value="active"/>
          </coding>
        </clinicalStatus>
        <verificationStatus>
          <coding>
            <system value="http://terminology.hl7.org/CodeSystem/condition-ver-status"/>
            <code value="confirmed"/>
          </coding>
        </verificationStatus>
        <category>
          <coding>
            <system value="http://hl7.org/fhir/us/eLTSS/CodeSystem/eltss-condition-category-code"/>
            <code value="assessed-need"/>
          </coding>
        </category>
        <code>
          <coding>
            <system value="http://snomed.info/sct"/>
            <code value="424573006"/>
            <display value="  Difficulty maintaining relationships (finding)"/>
          </coding>
          <text value=" Difficulty maintaining relationships (finding)"/>
        </code>
        <subject>
          <reference value="Patient/patient-t4"/>
        </subject>
      </Condition>
    </resource>
    <request>
      <method value="PUT"/>
       <url value="Condition/need-t4-2"/>
    </request>
  </entry>
  <entry>
    <!-- 11 -->
    <fullUrl value="http://example.org/eLTSS/need-t4-3"/>
    <resource>
      <!--  [eLTSS Assessed Need]  -->
      <Condition>
        <id value="need-t4-3"/>
        <meta>
          <profile value="http://hl7.org/fhir/us/eLTSS/StructureDefinition/Condition-eltss"/>
        </meta>
        <text>
          <status value="generated"/>
          <div xmlns="http://www.w3.org/1999/xhtml">
            <p><b>Assessed Need:</b>   At risk for social isolation</p>
          </div>
        </text>
        <clinicalStatus>
          <coding>
            <system value="http://terminology.hl7.org/CodeSystem/condition-clinical"/>
            <code value="active"/>
          </coding>
        </clinicalStatus>
        <verificationStatus>
          <coding>
            <system value="http://terminology.hl7.org/CodeSystem/condition-ver-status"/>
            <code value="confirmed"/>
          </coding>
        </verificationStatus>
        <category>
          <coding>
            <system value="http://hl7.org/fhir/us/eLTSS/CodeSystem/eltss-condition-category-code"/>
            <code value="assessed-need"/>
          </coding>
        </category>
        <code>
          <coding>
            <system value="http://snomed.info/sct"/>
            <code value="438772002"/>
            <display value="At risk for social isolation"/>
          </coding>
          <text value="At risk for social isolation"/>
        </code>
        <subject>
          <reference value="Patient/patient-t4"/>
        </subject>
      </Condition>
    </resource>
    <request>
      <method value="PUT"/>
       <url value="Condition/need-t4-3"/>
    </request>
  </entry>
  <entry>
    <!-- 12 -->
    <fullUrl value="http://example.org/eLTSS/provider-t4-1"/>
    <resource>
      <Practitioner>
        <id value="provider-t4-1"/>
        <meta>
          <profile value="http://hl7.org/fhir/us/eLTSS/StructureDefinition/Practitioner-eltss"/>
        </meta>
        <!-- identifier is required by US Core -->
        <identifier>
          <system value="http://www.acme.org/practitioners"/>
          <value value="651984"/>
        </identifier>
        <!-- [eLTSS Service Provider Name] -->
        <name>
          <text value="Andrew Novak"/>
          <family value="Novak"/>
          <given value="Andrew"/>
        </name>
        <!-- [eLTSS Service Provider Phone Number] -->
        <telecom>
          <system value="phone"/>
          <value value="(706) 555 0024"/>
        </telecom>
      </Practitioner>
    </resource>
    <request>
      <method value="PUT"/>
		<url value="Practitioner/provider-t4-1"/>
    </request>
  </entry>
  <entry>
    <!-- 13 -->
    <fullUrl value="http://example.org/eLTSS/provider-t4-2"/>
    <resource>
      <Organization>
        <id value="provider-t4-2"/>
        <!-- identifier is required by US Core -->
        <identifier>
          <system value="http://www.acme.org/practitioners"/>
          <value value="879461"/>
        </identifier>
        <!-- [eLTSS Service Provider Name] -->
        <name value="Bernie Ward Community Center"/>
        <!-- [eLTSS Service Provider Phone Number] -->
        <telecom>
          <system value="phone"/>
          <value value="(706) 790-0588"/>
        </telecom>
        <!-- address is required by US Core -->
        <address>
          <text value="1941 Lumpkin Rd. Augusta, GA 30906"/>
        </address>
      </Organization>
    </resource>
    <request>
      <method value="PUT"/>
       <url value="Organization/provider-t4-2"/>
    </request>
  </entry>
  <entry>
    <!-- 14 -->
    <fullUrl value="http://example.org/eLTSS/provider-t4-3"/>
    <!-- This practitioner is the person signing for the transportation provider organization -->
    <resource>
      <Practitioner>
        <id value="provider-t4-3"/>
        <meta>
          <profile value="http://hl7.org/fhir/us/eLTSS/StructureDefinition/Practitioner-eltss"/>
        </meta>
        <!-- identifier is required by US Core -->
        <identifier>
          <system value="http://www.acme.org/practitioners"/>
          <value value="8165768"/>
        </identifier>
        <!-- [eLTSS Service Provider Name] -->
        <name>
          <text value="Geofrey Curtis"/>
          <family value="Curtis"/>
          <given value="Geofrey"/>
        </name>
        <!-- [eLTSS Service Provider Phone Number] -->
        <telecom>
          <system value="phone"/>
          <value value="(706) 790-0468"/>
        </telecom>
      </Practitioner>
    </resource>
    <request>
      <method value="PUT"/>
       <url value="Practitioner/provider-t4-3"/>
    </request>
  </entry>
  <entry>
    <!-- 15 -->
    <fullUrl value="http://example.org/eLTSS/funding-t4-1"/>
    <resource>
      <Organization>
        <id value="funding-t4-1"/>
        <text>
          <status value="generated"/>
          <div xmlns="http://www.w3.org/1999/xhtml">
            <p><b>Service Funding Source:</b> MIchigan Medicaid Program Managed Long-Term Services and Supports</p>
          </div>
        </text>
        <!-- identifier is required by US Core -->
        <identifier>
          <value value="ICWP"/>
        </identifier>
        <!-- [eLTSS Service Funding Source] -->
        <name value="The Indigent Care Trust Fund"/>
        <!-- address is required by US Core -->
        <address>
          <text value="1501 Mercer University Drive, Macon, Georgia 31207"/>
        </address>
      </Organization>
    </resource>
    <request>
      <method value="PUT"/>
       <url value="Organization/funding-t4-1"/>
    </request>
  </entry>
  <!-- son, who is emergency contact and performing a non-paid service -->
  <entry>
    <!-- 16 -->
    <fullUrl value="http://example.org/eLTSS/relative-t4"/>
    <resource>
      <RelatedPerson>
        <id value="son-t4"/>
        <patient>
          <reference value="Patient/patient-t4"/>
        </patient>
        <relationship>
          <!-- [eLTSS Non-Paid Service Provider Relationship]  -->
          <!-- code value indicates son -->
          <coding>
            <system value="http://terminology.hl7.org/CodeSystem/v3-RoleCode"/>
            <code value="SONC"/>
          </coding>
        </relationship>
        <name>
          <text value="Adrien Garcia"/>
          <family value="Garcia"/>
          <given value="Adrien"/>
        </name>
      </RelatedPerson>
    </resource>
    <request>
      <method value="PUT"/>
       <url value="RelatedPerson/son-t4"/>
    </request>
  </entry>
  <!-- person's legal guardian -->
  <entry>
    <!-- 17 -->
    <fullUrl value="http://example.org/eLTSS/guardian-t4"/>
    <resource>
      <RelatedPerson>
        <id value="guardian-t4"/>
        <patient>
          <reference value="Patient/patient-t4"/>
        </patient>
        <name>
          <text value="Lionel Hutz"/>
          <family value="Hutz"/>
          <given value="Lionel"/>
        </name>
      </RelatedPerson>
    </resource>
    <request>
      <method value="PUT"/>
       <url value="RelatedPerson/guardian-t4"/>
    </request>
  </entry>
  <entry>
    <!-- 18 -->
    <fullUrl value="http://example.org/eLTSS/service-t4-1"/>
    <resource>
      <!-- Service #1 -->
      <ServiceRequest>
        <id value="service-t4-1"/>
        <meta>
          <profile value="http://hl7.org/fhir/us/eLTSS/StructureDefinition/ServiceRequest-eltss"/>
        </meta>
        <text>
          <status value="generated"/>
          <div xmlns="http://www.w3.org/1999/xhtml">
            <p><b>Service Name:</b> Personal care services, per 15 minutes - 5 units per week</p>
            <p><b>Service Start Date / End Date:</b> 2019-09-01 / 2020-12-31</p>
          </div>
        </text>
        <status value="active"/>
        <intent value="plan"/>
        <!-- [eLTSS Service Name]  -->
        <code>
          <coding>
            <system value="urn:oid:2.16.840.1.113883.6.14"/>
            <code value="T1019"/>
          </coding>
          <text value="Personal care services, per 15 minutes"/>
        </code>
        <!-- Data below represents 5 quarter hours of service per week -->
        <quantityRatio>
          <numerator>
            <!--  [eLTSS Service Unit Quantity]  -->
            <value value="8"/>
            <!--  [eLTSS Unit of Service Type]  -->
            <unit value="quarter hour"/>
          </numerator>
          <!-- [eLTSS Service Unit Quantity Interval]  -->
          <denominator>
            <value value="2"/>
            <unit value="week"/>
          </denominator>
        </quantityRatio>
        <!-- subject is required by FHIR -->
        <subject>
          <reference value="Patient/patient-t4"/>
        </subject>
        <occurrencePeriod>
          <!-- [eLTSS Service Start Date] -->
          <start value="2019-08-15"/>
          <!-- [eLTSS Service End Date] -->
          <end value="2020-12-15"/>
        </occurrencePeriod>
        <performer>
          <reference value="Practitioner/provider-t4-1"/>
        </performer>
        <!-- [eLTSS Service Delivery Address] -->
        <locationReference>
          <reference value="Location/location-t4-1"/>
        </locationReference>
      </ServiceRequest>
    </resource>
    <request>
      <method value="PUT"/>
       <url value="ServiceRequest/service-t4-1"/>
    </request>
  </entry>
  <entry>
    <!-- 19 -->
    <fullUrl value="http://example.org/eLTSS/service-t4-2"/>
    <resource>
      <!-- Service #2 -->
      <ServiceRequest>
        <id value="service-t4-2"/>
        <meta>
          <profile value="http://hl7.org/fhir/us/eLTSS/StructureDefinition/ServiceRequest-eltss"/>
        </meta>
        <text>
          <status value="generated"/>
          <div xmlns="http://www.w3.org/1999/xhtml">
            <p><b>Service Name:</b> Non-emergency transportation; encounter/trip - 20 trips total</p>
            <p><b>Service Start Date / End Date:</b> 2019-08-15 / 2019-12-15</p>
          </div>
        </text>
        <!-- [eLTSS Self-directed Service Indicator] -->
        <extension url="http://hl7.org/fhir/us/eLTSS/StructureDefinition/eltss-directedBy">
          <valueCodeableConcept>
            <text value="self"/>
          </valueCodeableConcept>
        </extension>
        <status value="active"/>
        <intent value="plan"/>
        <!-- [eLTSS Service Name]  -->
        <code>
          <coding>
            <system value="urn:oid:2.16.840.1.113883.6.14"/>
            <code value="T2003"/>
          </coding>
          <text value="Non-emergency transportation; encounter/trip"/>
        </code>
        <quantityQuantity>
          <!--  [eLTSS Service Unit Quantity]  -->
          <value value="20"/>
          <!--  [eLTSS Unit of Service Type]  -->
          <unit value="trips"/>
        </quantityQuantity>
        <!-- subject is required by FHIR -->
        <subject>
          <reference value="Patient/patient-t4"/>
        </subject>
        <occurrencePeriod>
          <!-- [eLTSS Service Start Date] -->
          <start value="2019-08-15"/>
          <!-- [eLTSS Service End Date] -->
          <end value="2019-12-15"/>
        </occurrencePeriod>
        <performer>
          <reference value="Organization/provider-t4-2"/>
        </performer>
        <insurance>
          <reference value="Coverage/coverage-t4-1"/>
        </insurance>
        <supportingInfo>
          <reference value="Claim/claim-t4-1"/>
        </supportingInfo>
        <!--  [eLTSS Service Comment]  -->
        <note>
          <text value="Service provider will provide a reminder the business day before the trip, and will call when on the way."/>
        </note>
      </ServiceRequest>
    </resource>
    <request>
      <method value="PUT"/>
       <url value="ServiceRequest/service-t4-2"/>
    </request>
  </entry>
  <entry>
    <!-- 20 -->
    <fullUrl value="http://example.org/eLTSS/service-t4-3"/>
    <resource>
      <!-- Service #3 -->
      <ServiceRequest>
        <id value="service-t4-3"/>
        <meta>
          <profile value="http://hl7.org/fhir/us/eLTSS/StructureDefinition/ServiceRequest-eltss"/>
        </meta>
        <text>
          <status value="generated"/>
          <div xmlns="http://www.w3.org/1999/xhtml">
            <p><b>Service Name:</b> Social outing driver - two per week</p>
            <p><b>Service Start Date / End Date:</b> 2019-09-01 / 2020-12-31</p>
          </div>
        </text>
        <status value="active"/>
        <intent value="plan"/>
        <!-- [eLTSS Service Name]  -->
        <code>
          <text value="Social outing"/>
        </code>
        <!-- Data below represents 1 visit per 1 week -->
        <quantityRatio>
          <numerator>
            <!--  [eLTSS Service Unit Quantity]  -->
            <value value="2"/>
            <!--  [eLTSS Unit of Service Type]  -->
            <unit value="visit"/>
          </numerator>
          <!--  [eLTSS Service Unit Quantity Interval]  -->
          <denominator>
            <value value="1"/>
            <unit value="week"/>
          </denominator>
        </quantityRatio>
        <!-- subject is required by FHIR -->
        <subject>
          <reference value="Patient/patient-t4"/>
        </subject>
        <occurrencePeriod>
          <!-- [eLTSS Service Start Date] -->
          <start value="2019-05-01"/>
          <!-- [eLTSS Service End Date] -->
          <end value="2020-12-31"/>
        </occurrencePeriod>
        <performer>
          <reference value="RelatedPerson/son-t4"/>
        </performer>
      </ServiceRequest>
    </resource>
    <request>
      <method value="PUT"/>
       <url value="ServiceRequest/service-t4-3"/>
    </request>
  </entry>
  <entry>
    <!-- 21 -->
    <fullUrl value="http://example.org/eLTSS/strength-t4-1"/>
    <resource>
      <!--  [eLTSS Strength]  -->
      <Observation>
        <id value="strength-t4-1"/>
        <meta>
          <profile value="http://hl7.org/fhir/us/eLTSS/StructureDefinition/Observation-eltss"/>
        </meta>
        <text>
          <status value="generated"/>
          <div xmlns="http://www.w3.org/1999/xhtml">
            <p><b>Person Strength:</b>Good neighbour</p>
          </div>
        </text>
        <status value="final"/>
        <code>
          <text value="Strength"/>
        </code>
        <valueString value="Strong will"/>
      </Observation>
    </resource>
    <request>
      <method value="PUT"/>
       <url value="Observation/strength-t4-1"/>
    </request>
  </entry>
  <entry>
    <!-- 23 -->
    <fullUrl value="http://example.org/eLTSS/risk-t4-1"/>
    <resource>
      <RiskAssessment>
        <id value="risk-t4-1"/>
        <meta>
          <profile value="http://hl7.org/fhir/us/eLTSS/StructureDefinition/RiskAssessment-eltss"/>
        </meta>
        <status value="final"/>
        <!-- subject is required by FHIR (starting with 3.4.0) -->
        <subject>
          <reference value="Patient/patient-t4"/>
        </subject>
        <!-- [eLTSS Identified Risk]  -->
        <prediction>
          <outcome>
            <coding>
              <!-- code indicates risk for caregiver role strain -->
              <!--              <system value="urn:oid:2.16.840.1.113883.6.96"/>   -->
              <system value="http://snomed.info/sct"/>
              <code value="129700008"/>
            </coding>
          </outcome>
        </prediction>
        <!-- [eLTSS Risk Management Plan]  -->
        <mitigation value="none established"/>
      </RiskAssessment>
    </resource>
    <request>
      <method value="PUT"/>
       <url value="RiskAssessment/risk-t4-1"/>
    </request>
  </entry>
  <entry>
    <!-- 24 -->
    <fullUrl value="http://example.org/eLTSS/questionnaire-t4"/>
    <resource>
      <Questionnaire>
        <id value="questionnaire-t4"/>
        <meta>
          <profile value="http://hl7.org/fhir/us/eLTSS/StructureDefinition/Questionnaire-eltss"/>
        </meta>
        <name value="Questionnaire-t4"/>
        <status value="active"/>
        <item>
          <linkId value="q1"/>
          <text value="Did you choose the setting in which you reside?"/>
          <type value="boolean"/>
        </item>
        <item>
          <linkId value="q2"/>
          <text value="What alternative home and community-based settings were considered?"/>
          <type value="string"/>
        </item>
        <item>
          <linkId value="q3"/>
          <text value="Were you given a choice of services outlined in the plan?"/>
          <type value="boolean"/>
        </item>
        <item>
          <linkId value="q4"/>
          <text value="Did you participate in the selection of services outlined in the plan?"/>
          <type value="boolean"/>
        </item>
        <item>
          <linkId value="q5"/>
          <text value="Do you agree to the services outlined in the plan?"/>
          <type value="boolean"/>
        </item>
        <item>
          <linkId value="q6"/>
          <text value="Were you offerred a choice of providers for each service?"/>
          <type value="boolean"/>
        </item>
        <item>
          <linkId value="q7"/>
          <text value="Do you feel you made an informed choice in selecting the provider for each service?"/>
          <type value="boolean"/>
        </item>
      </Questionnaire>
    </resource>
    <request>
      <method value="PUT"/>
       <url value="Questionnaire/questionnaire-t4"/>
    </request>
  </entry>
  <entry>
    <!-- 25 -->
    <fullUrl value="http://example.org/eLTSS/questionnaireresponse-t4"/>
    <resource>
      <QuestionnaireResponse>
        <id value="questionnaireresponse-t4"/>
        <questionnaire value="http://example.org/eLTSS/Questionnaire/questionnaire-t4"/>
        <status value="completed"/>
        <!-- [eLTSS Person Setting Choice Indicator]  -->
        <item>
          <linkId value="q1"/>
          <answer>
            <valueBoolean value="true"/>
          </answer>
        </item>
        <!-- [eLTSS Person Setting Choice Options]  -->
        <item>
          <linkId value="q2"/>
          <answer>
            <valueString value="Independent Living Facility"/>
          </answer>
        </item>
        <!-- [eLTSS Service Options Given Indicator]  -->
        <item>
          <linkId value="q3"/>
          <answer>
            <valueBoolean value="true"/>
          </answer>
        </item>
        <!-- [eLTSS Service Selection Indicator]  -->
        <item>
          <linkId value="q4"/>
          <answer>
            <valueBoolean value="true"/>
          </answer>
        </item>
        <!-- [eLTSS Service Plan Agreement Indicator]  -->
        <item>
          <linkId value="q5"/>
          <answer>
            <valueBoolean value="false"/>
          </answer>
        </item>
        <!-- [eLTSS Service Provider Options Given Indicator]  -->
        <item>
          <linkId value="q6"/>
          <answer>
            <valueBoolean value="true"/>
          </answer>
        </item>
        <!-- [eLTSS Service Provider Selection Agreement Indicator]  -->
        <item>
          <linkId value="q7"/>
          <answer>
            <valueBoolean value="true"/>
          </answer>
        </item>
      </QuestionnaireResponse>
    </resource>
    <request>
      <method value="PUT"/>
       <url value="QuestionnaireResponse/questionnaireresponse-t4"/>
    </request>
  </entry>
  <entry>
    <!-- 26 -->
    <fullUrl value="http://example.org/eLTSS/contract-t4-1"/>
    <resource>
      <Contract>
        <id value="contract-t4-1"/>
        <meta>
          <profile value="http://hl7.org/fhir/us/eLTSS/StructureDefinition/Contract-eltss"/>
        </meta>
        <!-- [eLTSS Person Signature], [eLTSS Person Printed Name], [eLTSS Person Signature Date]  -->
        <signer>
          <type>
            <system value="http://terminology.hl7.org/CodeSystem/contractsignertypecodes"/>
            <code value="PAT"/>
          </type>
          <party>
            <reference value="Patient/patient-t4"/>
          </party>
          <signature>
            <type>
              <system value="urn:iso-astm:E1762-95:2013"/>
              <code value="1.2.840.10065.1.12.1.7"/>
            </type>
            <when value="2018-04-02T03:00:00Z"/>
            <who>
              <reference value="Patient/patient-t4"/>
            </who>
            <!-- note that all signature blobs in the sample are identical, and are base64 versions of a Windows icon -->
            <data value=""/>
          </signature>
        </signer>
        <!-- [eLTSS Guardian/Legal Representative Signature], [eLTSS Guardian/Legal Representative Printed Name], -->
        <!-- [eLTSS Guardian/Legal Representative Signature Date]  -->
        <signer>
          <type>
            <system value="http://terminology.hl7.org/CodeSystem/contractsignertypecodes"/>
            <code value="GUARD"/>
          </type>
          <party>
            <reference value="RelatedPerson/guardian-t4"/>
          </party>
          <signature>
            <type>
              <system value="urn:iso-astm:E1762-95:2013"/>
              <code value="1.2.840.10065.1.12.1.7"/>
            </type>
            <when value="2018-04-02T03:00:00Z"/>
            <who>
              <reference value="RelatedPerson/guardian-t4"/>
            </who>
            <!-- note that all signature blobs in the sample are identical, and are base64 versions of a Windows icon -->
            <data value=""/>
          </signature>
        </signer>
        <!-- [eLTSS Support Planner Signature], [eLTSS Support Planner Printed Name], [eLTSS Support Planner Signature Date]  -->
        <signer>
          <type>
            <system value="http://terminology.hl7.org/CodeSystem/contractsignertypecodes"/>
            <code value="AUT"/>
          </type>
          <party>
            <reference value="Practitioner/planner-t4-1"/>
          </party>
          <signature>
            <type>
              <system value="urn:iso-astm:E1762-95:2013"/>
              <code value="1.2.840.10065.1.12.1.1"/>
            </type>
            <when value="2018-04-02T03:00:00Z"/>
            <who>
              <reference value="Practitioner/planner-t4-1"/>
            </who>
            <!-- note that all signature blobs in the sample are identical, and are base64 versions of a Windows icon -->
            <data value=""/>
          </signature>
        </signer>
        <!-- Service Provider #1 -->
        <!-- [eLTSS Service Provider Signature], [eLTSS Service Provider Printed Name], [eLTSS Service Provider Signature Date]  -->
        <signer>
          <type>
            <system value="http://terminology.hl7.org/CodeSystem/contractsignertypecodes"/>
            <code value="HPROV"/>
          </type>
          <party>
            <reference value="Practitioner/provider-t4-1"/>
          </party>
          <signature>
            <type>
              <system value="urn:iso-astm:E1762-95:2013"/>
              <code value="1.2.840.10065.1.12.1.7"/>
            </type>
            <when value="2018-04-02T03:00:00Z"/>
            <who>
              <reference value="Practitioner/provider-t4-1"/>
            </who>
            <!-- note that all signature blobs in the sample are identical, and are base64 versions of a Windows icon -->
            <data value=""/>
          </signature>
        </signer>
        <!-- Service Provider #2 -->
        <!-- [eLTSS Service Provider Signature], [eLTSS Service Provider Printed Name], [eLTSS Service Provider Signature Date]  -->
        <signer>
          <type>
            <system value="http://terminology.hl7.org/CodeSystem/contractsignertypecodes"/>
            <code value="HPROV"/>
          </type>
          <party>
            <reference value="Organization/provider-t4-2"/>
          </party>
          <signature>
            <type>
              <system value="urn:iso-astm:E1762-95:2013"/>
              <code value="1.2.840.10065.1.12.1.7"/>
            </type>
            <when value="2018-04-02T03:00:00Z"/>
            <!-- In this example, the service provider is the transportation company, and the signer is a representative of that company -->
            <who>
              <reference value="Organization/provider-t4-2"/>
            </who>
            <!-- note that all signature blobs in the sample are identical, and are base64 versions of a Windows icon -->
            <data value=""/>
          </signature>
        </signer>
        <!-- Service Provider #3 -->
        <!-- [eLTSS Service Provider Signature], [eLTSS Service Provider Printed Name], [eLTSS Service Provider Signature Date]  -->
        <signer>
          <type>
            <system value="http://terminology.hl7.org/CodeSystem/contractsignertypecodes"/>
            <code value="HPROV"/>
          </type>
          <party>
            <reference value="RelatedPerson/son-t4"/>
          </party>
          <signature>
            <type>
              <system value="urn:iso-astm:E1762-95:2013"/>
              <code value="1.2.840.10065.1.12.1.7"/>
            </type>
            <when value="2018-04-02T03:00:00Z"/>
            <who>
              <reference value="RelatedPerson/son-t4"/>
            </who>
            <!-- note that all signature blobs in the sample are identical, and are base64 versions of a Windows icon -->
            <data value=""/>
          </signature>
        </signer>
      </Contract>
    </resource>
    <request>
      <method value="PUT"/>
       <url value="Contract/contract-t4-1"/>
    </request>
  </entry>
  <entry>
    <!-- 27 -->
    <fullUrl value="http://example.org/eLTSS/location-t4-1"/>
    <resource>
      <Location>
        <id value="location-t4-1"/>
        <meta>
          <profile value="http://hl7.org/fhir/us/eLTSS/StructureDefinition/Location-eltss"/>
        </meta>
        <name value="In Home"/>
        <!-- [eLTSS Service Delivery Address]  -->
        <address>
          <text value="3216 Peach Orchard Rd, Augusta, GA 30906"/>
        </address>
      </Location>
    </resource>
    <request>
      <method value="PUT"/>
       <url value="Location/location-t4-1"/>
    </request>
  </entry>
  <entry>
    <!-- 28 -->
    <fullUrl value="http://example.org/eLTSS/coverage-t4-1"/>
    <resource>
      <Coverage>
        <id value="coverage-t4-1"/>
        <!-- Links to the eLTSS Service Funding Source  -->
        <status value="active"/>
        <beneficiary>
          <reference value="Patient/patient-t4"/>
        </beneficiary>
        <payor>
          <reference value="Organization/funding-t4-1"/>
        </payor>
      </Coverage>
    </resource>
    <request>
      <method value="PUT"/>
       <url value="Coverage/coverage-t4-1"/>
    </request>
  </entry>
  <entry>
    <!-- 29 -->
    <fullUrl value="http://example.org/eLTSS/claim-t4-1"/>
    <resource>
      <Claim>
        <id value="claim-t4-1"/>
        <meta>
          <profile value="http://hl7.org/fhir/us/eLTSS/StructureDefinition/Claim-eltss"/>
        </meta>
        <status value="active"/>
        <type>
          <coding>
            <system value="http://terminology.hl7.org/CodeSystem/claim-type"/>
            <code value="professional"/>
          </coding>
        </type>
        <use value="claim"/>
        <patient>
          <reference value="Patient/patient-t4"/>
        </patient>
        <created value="2019-08-09"/>
        <provider>
          <reference value="Organization/funding-t4-1"/>
        </provider>
        <priority>
          <coding>
            <system value="http://terminology.hl7.org/CodeSystem/processpriority"/>
            <code value="normal"/>
          </coding>
        </priority>
        <insurance>
          <sequence value="1"/>
          <focal value="true"/>
          <coverage>
            <reference value="Coverage/coverage-t4-1"/>
          </coverage>
        </insurance>
        <item>
          <sequence value="1"/>
          <productOrService>
            <coding>
              <system value="http://terminology.hl7.org/CodeSystem/ex-USCLS"/>
              <code value="1101"/>
            </coding>
          </productOrService>
          <!-- eLTSS Service Rate per Unit]  -->
          <unitPrice>
            <value value="65.00"/>
          </unitPrice>
          <!-- eLTSS Total Cost of Service]  -->
          <net>
            <value value="650.00"/>
          </net>
        </item>
      </Claim>
    </resource>
    <request>
      <method value="PUT"/>
       <url value="Claim/claim-t4-1"/>
    </request>
  </entry>
</Bundle>